<?xml version="1.0" encoding="UTF-8"?>
<Bundle xmlns="http://hl7.org/fhir">
  <id value="cancer-connectathon-27-working-message-bundle" />
  <meta>
    <versionId value="3" />
    <lastUpdated value="2021-05-11T21:26:51.234+00:00" />
    <source value="#5Zirk7nRqZCqYNo0" />
    <profile value="http://www.hl7.org/fhir/us/cancer-reporting/StructureDefinition/message-bundle" />
    <security>
      <system value="https://trifolia-fhir.lantanagroup.com/security" />
      <code value="everyone^write" />
    </security>
    <security>
      <system value="https://trifolia-fhir.lantanagroup.com/security" />
      <code value="everyone^read" />
    </security>
  </meta>
  <type value="message" />
  <!-- MessageHeader -->
  <entry>
    <fullUrl value="urn:uuid:1cbdfb97-5859-48a4-8301-d50eab818i88" />
    <resource>
      <MessageHeader>
        <meta>
          <profile value="http://www.hl7.org/fhir/us/cancer-reporting/StructureDefinition/naaccr-message-header"/>
        </meta>
        <text>
          <status value="generated" />
          <div xmlns="http://www.w3.org/1999/xhtml">
            <p> SDC example Message Bundle for fake patient Jose including Patient, Encounter</p>
          </div>
        </text>
        <extension
          url="http://hl7.org/fhir/us/medmorph/StructureDefinition/ext-messageProcessingCategory">
          <valueCode value="notification" />
        </extension>
        <eventCoding>
          <system
            value="http://hl7.org/fhir/us/medmorph/CodeSystem/us-ph-messageheader-message-types" />
          <code value="cancer-report-message" />
        </eventCoding>
        <destination>
          <endpoint value="http://example.com/fhir/cerner-test" />
        </destination>
        <sender>
          <reference value="Organization/Redwood-Womens-Center-PC" />
        </sender>
        <source>
          <name value="IHE SDC on FHIR Parser" />
          <endpoint value="http://example.com/fhir/mtuitive-test" />
        </source>
        <reason>
          <coding>
            <system
              value="http://hl7.org/fhir/us/medmorph/CodeSystem/us-ph-triggerdefinition-namedevents" />
            <code value="new-labresult" />
          </coding>
        </reason>
        <focus>
          <type value="DiagnosticReport" />
          <identifier>
            <system value="https://CAP.org" />
            <value
              value="Adrenal.Bx.Res.129_3.002.011.RC1_sdcFDF3d1c4fe4-09c3-4a7e-877f-9ddb160da6db/ver1"
             />
          </identifier>
        </focus>
      </MessageHeader>
    </resource>
  </entry>
  <!-- Patient -->
  <entry>
    <fullUrl value="urn:uuid:2c08e319-f0af-48b3-98df-267cbd376791" />
    <resource>
      <Patient>
        <meta>
          <profile value="http://hl7.org/fhir/us/core/StructureDefinition/us-core-patient"/>
        </meta>
        <id value="JoelAlexPatient" />
        <text>
          <status value="generated" />
          <div xmlns="http://www.w3.org/1999/xhtml">
            <div class="hapiHeaderText">Jose 
                            <b>RODRIGUEZ </b>
            </div>
            <table class="hapiPropertyTable">
              <tbody>
                <tr>
                  <td>Identifier</td>
                  <td>JoelAlexPatient</td>
                </tr>
              </tbody>
            </table>
          </div>
        </text>
        <identifier>
          <system value="urn:system" />
          <value value="JoelAlexPatient" />
        </identifier>
        <name>
          <family value="Rodriguez" />
          <given value="Jose" />
        </name>
        <gender value="male" />
      </Patient>
    </resource>
  </entry>
  <!-- Encounter where specimen originated -->
  <entry>
    <fullUrl value="urn:uuid:2c08e319-f0af-48b3-98df-267cbd376926" />
    <resource>
      <Encounter>
        <meta>
          <profile value="http://hl7.org/fhir/us/core/StructureDefinition/us-core-encounter"/>
        </meta>
        <identifier>
          <system value="http://example.com/fhir/encounters" />
          <value value="123" />
        </identifier>
        <status value="finished" />
        <class>
          <system value="http://terminology.hl7.org/CodeSystem/v3-ActCode" />
          <code value="IMP" />
          <display value="inpatient encounter" />
        </class>
        <type>
          <coding>
            <system value="http://snomed.info/sct" />
            <code value="308335008" />
          </coding>
        </type>
        <subject>
          <reference value="Patient/JoelAlexPatient" />
        </subject>
        <participant>
          <individual>
            <reference value="Practitioner/oncologist-example" />
          </individual>
        </participant>
        <participant>
          <individual>
            <reference value="Practitioner/pathologist-example" />
          </individual>
        </participant>
      </Encounter>
    </resource>
  </entry>
  <!-- DiagnosticReport -->
  <entry>
    <fullUrl value="urn:uuid:edfb977c-5e0e-41a9-93a6-c2d3f80b6903" />
    <resource>
      <DiagnosticReport>
        <meta>
          <profile value="http://www.hl7.org/fhir/us/cancer-reporting/StructureDefinition/pathology-diagnostic-report"/>
        </meta>
        <text>
          <status value="generated" />
          <div xmlns="http://www.w3.org/1999/xhtml">
            <div class="hapiHeaderText"> Pathology Synoptic report </div>
            <table class="hapiPropertyTable">
              <tbody>
                <tr>
                  <td>Status</td>
                  <td>FINAL</td>
                </tr>
              </tbody>
            </table>
          </div>
        </text>
        <identifier>
          <system value="https://CAP.org" />
          <value
            value="Adrenal.Bx.Res.129_3.002.011.RC1_sdcFDF3d1c4fe4-09c3-4a7e-877f-9ddb160da6db/ver1"
           />
        </identifier>
        <status value="final" />
        <category>
          <coding>
            <system value="http://loinc.org" />
            <code value="LP7839-6" />
            <display value="Pathology" />
          </coding>
        </category>
        <code>
          <coding>
            <system value="http://loinc.org" />
            <code value="60568-3" />
            <display value="Pathology Synoptic report" />
          </coding>
        </code>
        <subject>
          <reference value="Patient/JoelAlexPatient" />
          <display value="Jose Rodriguez" />
        </subject>
        <effectiveDateTime value="2021-01-01T21:39:30.000Z" />
        <performer>
          <reference value="PractitionerRole/pathologist-example"/>
        </performer>
        <resultsInterpreter>
          <reference value="PractitionerRole/pathologist-example"/>
        </resultsInterpreter>
        <result>
          <reference value="Observation/2020"/>
          <identifier>
            <system value="https://CAP.org" />
            <value value="Adrenal.Bx.Res.129_3.002.011.RC1_sdcFDF3d1c4fe4-09c3-4a7e-877f-9ddb160da6db/ver1#2118.100004300"/>
          </identifier>
        </result>
        <result>
          <identifier>
            <system value="https://CAP.org" />
            <value
              value="Adrenal.Bx.Res.129_3.002.011.RC1_sdcFDF3d1c4fe4-09c3-4a7e-877f-9ddb160da6db/ver1#42554.100004300"
             />
          </identifier>
        </result>
        <result>
          <identifier>
            <system value="https://CAP.org" />
            <value
              value="Adrenal.Bx.Res.129_3.002.011.RC1_sdcFDF3d1c4fe4-09c3-4a7e-877f-9ddb160da6db/ver1#52756.100004300"
             />
          </identifier>
        </result>
        <result>
          <identifier>
            <system value="https://CAP.org" />
            <value
              value="Adrenal.Bx.Res.129_3.002.011.RC1_sdcFDF3d1c4fe4-09c3-4a7e-877f-9ddb160da6db/ver1#59852.100004300"
             />
          </identifier>
        </result>
        <result>
          <identifier>
            <system value="https://CAP.org" />
            <value
              value="Adrenal.Bx.Res.129_3.002.011.RC1_sdcFDF3d1c4fe4-09c3-4a7e-877f-9ddb160da6db/ver1#49275.100004300"
             />
          </identifier>
        </result>
        <result>
          <identifier>
            <system value="https://CAP.org" />
            <value
              value="Adrenal.Bx.Res.129_3.002.011.RC1_sdcFDF3d1c4fe4-09c3-4a7e-877f-9ddb160da6db/ver1#2129.100004300"
             />
          </identifier>
        </result>
        <result>
          <identifier>
            <system value="https://CAP.org" />
            <value
              value="Adrenal.Bx.Res.129_3.002.011.RC1_sdcFDF3d1c4fe4-09c3-4a7e-877f-9ddb160da6db/ver1#40496.100004300"
             />
          </identifier>
        </result>
        <result>
          <identifier>
            <system value="https://CAP.org" />
            <value
              value="Adrenal.Bx.Res.129_3.002.011.RC1_sdcFDF3d1c4fe4-09c3-4a7e-877f-9ddb160da6db/ver1.51265.100004300"
             />
          </identifier>
        </result>
        <result>
          <identifier>
            <system value="https://CAP.org" />
            <value
              value="Adrenal.Bx.Res.129_3.002.011.RC1_sdcFDF3d1c4fe4-09c3-4a7e-877f-9ddb160da6db/ver1.53526.100004300"
             />
          </identifier>
        </result>
        <result>
          <identifier>
            <system value="https://CAP.org" />
            <value
              value="Adrenal.Bx.Res.129_3.002.011.RC1_sdcFDF3d1c4fe4-09c3-4a7e-877f-9ddb160da6db/ver1.1867.100004300"
             />
          </identifier>
        </result>
        <result>
          <identifier>
            <system value="https://CAP.org" />
            <value
              value="Adrenal.Bx.Res.129_3.002.011.RC1_sdcFDF3d1c4fe4-09c3-4a7e-877f-9ddb160da6db/ver1.20880.100004300"
             />
          </identifier>
        </result>
        <result>
          <identifier>
            <system value="https://CAP.org" />
            <value
              value="Adrenal.Bx.Res.129_3.002.011.RC1_sdcFDF3d1c4fe4-09c3-4a7e-877f-9ddb160da6db/ver1#2137.100004300"
             />
          </identifier>
        </result>
        <result>
          <identifier>
            <system value="https://CAP.org" />
            <value
              value="Adrenal.Bx.Res.129_3.002.011.RC1_sdcFDF3d1c4fe4-09c3-4a7e-877f-9ddb160da6db/ver1#2143.100004300"
             />
          </identifier>
        </result>
        <result>
          <identifier>
            <system value="https://CAP.org" />
            <value
              value="Adrenal.Bx.Res.129_3.002.011.RC1_sdcFDF3d1c4fe4-09c3-4a7e-877f-9ddb160da6db/ver1#2149.100004300"
             />
          </identifier>
        </result>
        <presentedForm>
          <contentType value="application/xml" />
          <data
            value="UEZORVTWdjbVZ6WlhKMlpXUXVJQ0JNYVdObGJuTmxJSEpsY1hWcGNtVmtJR1p2Y2lCMWMyVXVJaUF2UGcwS0NRazhMMFp2YjNSbGNqNE5DZ2s4TDBadmNtMUVaWE5wWjI0K0RRbzhMMU5FUTFOMVltMXBjM05wYjI1UVlXTnJZV2RsUGc9PQ=="
           />
        </presentedForm>
      </DiagnosticReport>
    </resource>
  </entry>
  <!-- Service Request -->
  <entry>
    <fullUrl value="http://example.org/fhir/ServiceRequest/example-synoptic-service-request" />
    <resource>
      <ServiceRequest>
        <id value="example-synoptic-service-request" />
        <meta>
          <profile value="http://www.hl7.org/fhir/us/cancer-reporting/StructureDefinition/pathology-service-request"/>
        </meta> 
        <status value="completed" />
        <intent value="order" />
        <subject>
          <reference value="urn:uuid:2c08e319-f0af-48b3-98df-267cbd376791" />
        </subject>
        <requester>
          <reference value="PractitionerRole/oncologist-example" />
        </requester>
        <specimen>
          <reference value="Specimen/adrenal-example"/>
        </specimen>
      </ServiceRequest>
    </resource>
  </entry>
  <!-- Specimen -->
  <entry>
    <fullUrl value="http://www.hl7.org/fhir/us/cancer-reporting/Specimen/adrenal-example" />
    <resource>
      <Specimen>
        <id value="adrenal-example" />
        <meta>
          <profile
            value="http://www.hl7.org/fhir/us/cancer-reporting/StructureDefinition/pathology-specimen"
          />
        </meta>
        <identifier>
          <system value="http://some-lis.org/fhir/specimen-identifier-provisioner" />
          <value value="123456789" />
        </identifier>
        <type>
          <coding>
            <system value="http://terminology.hl7.org/CodeSystem/v2-0487" />
            <code value="BX" />
          </coding>
        </type>
      </Specimen>
    </resource>
  </entry>
  <!-- Ordering Provider PractitionerRole -->
  <entry>
    <fullUrl value="http://www.hl7.org/fhir/us/cancer-reporting/PractitionerRole/oncologist-example"/>
    <resource>
      <PractitionerRole>
        <id value="oncologist-example"/>
        <meta>
          <profile value="http://www.hl7.org/fhir/us/cancer-reporting/StructureDefinition/pathology-related-practitioner-role"/>
        </meta>
        <practitioner>
          <reference value="Practitioner/oncologist-example"/>
        </practitioner>
        <organization>
          <reference value="Organization/Redwood-Womens-Center-PC"/>
        </organization>
        <code>
          <coding>
            <system value="http://www.hl7.org/fhir/us/cancer-reporting/CodeSystem/pathology-provider-types"/>
            <code value="orderer"/>
            <display value="Physician Ordering Pathology testing"/>
          </coding>
        </code>
      </PractitionerRole>
    </resource>
  </entry>
  <!-- Ordering Practitioner -->
  <entry>
    <fullUrl value="http://example.org/fhir/Practitioner/oncologist-example" />
    <resource>
      <Practitioner>
        <id value="oncologist-example" />
        <meta>
          <profile value="http://hl7.org/fhir/us/core/StructureDefinition/us-core-practitioner" />
        </meta>
        <identifier>
          <system value="http://hl7.org/fhir/sid/us-npi" />
          <value value="123456789" />
        </identifier>
        <name>
          <family value="Owl" />
          <given value="Wise" />
        </name>
      </Practitioner>
    </resource>
  </entry>
  <!-- Ordering Facility Organization -->
  <entry>
    <fullUrl value="http://example.org/fhir/Organization/Redwood-Womens-Center-PC" />
    <resource>
      <Organization>
        <id value="Redwood-Womens-Center-PC" />
        <meta>
          <profile value="http://hl7.org/fhir/us/core/StructureDefinition/us-core-organization"/>
        </meta>
        <active value="true" />
        <name value="Redwood Women's Center, P.C." />
        <address>
          <line value="3307 Renner Drive" />
          <city value="Fortuna" />
          <state value="CA" />
          <postalCode value="95540" />
          <country value="USA" />
        </address>
      </Organization>
    </resource>
  </entry>
  <!-- Principal Results Interpretter Provider PractitionerRole -->
  <entry>
    <fullUrl value="http://www.hl7.org/fhir/us/cancer-reporting/PractitionerRole/pathologist-example"/>
    <resource>
      <PractitionerRole>
        <id value="pathologist-example"/>
        <meta>
          <profile value="http://www.hl7.org/fhir/us/cancer-reporting/StructureDefinition/pathology-related-practitioner-role"/>
        </meta>
        <practitioner>
          <reference value="Practitioner/pathologist-example"/>
        </practitioner>
        <organization>
          <reference value="Organization/principal-pathology-lab"/>
        </organization>
        <code>
          <coding>
            <system value="http://www.hl7.org/fhir/us/cancer-reporting/CodeSystem/pathology-provider-types"/>
            <code value="principal-result-interpretter"/>
            <display value="Pathologist principally interpretting results on pathology testing"/>
          </coding>
        </code>
      </PractitionerRole>
    </resource>
  </entry>
  <!-- Principal Results Interpretter Practitioner -->
  <entry>
    <fullUrl value="http://example.org/fhir/Practitioner/pathologist-example" />
    <resource>
      <Practitioner>
        <id value="pathologist-example" />
        <meta>
          <profile value="http://hl7.org/fhir/us/core/StructureDefinition/us-core-practitioner" />
        </meta>
        <identifier>
          <system value="http://hl7.org/fhir/sid/us-npi" />
          <value value="987654321" />
        </identifier>
        <name>
          <family value="Alot" />
          <given value="Stains" />
        </name>
      </Practitioner>
    </resource>
  </entry>
  <!-- Principal Results Interpretting Facility Organization -->
  <entry>
    <fullUrl value="http://example.org/fhir/Organization/principal-pathology-lab" />
    <resource>
      <Organization>
        <id value="principal-pathology-lab" />
        <meta>
          <profile value="http://hl7.org/fhir/us/core/StructureDefinition/us-core-organization"/>
        </meta>
        <active value="true" />
        <name value="Some Pathology Lab Name" />
        <address>
          <line value="Any" />
          <city value="City" />
          <state value="CA" />
          <postalCode value="95540" />
          <country value="USA" />
        </address>
      </Organization>
    </resource>
  </entry>
  <!-- Next of Kin -->
  <entry>
    <fullUrl value="http://www.hl7.org/fhir/us/cancer-reporting/RelatedPerson/minni-me-next-of-kin" />
    <resource>
      <RelatedPerson>
        <id value="minni-me-next-of-kin" />
        <meta>
          <profile
            value="http://www.hl7.org/fhir/us/cancer-reporting/StructureDefinition/next-of-kin" />
        </meta>
        <patient>
          <reference value="Patient/JoelAlexPatient" />
        </patient>
        <relationship>
          <coding>
            <system value="http://terminology.hl7.org/CodeSystem/v2-0131" />
            <code value="N" />
            <display value="Next-of-Kin" />
          </coding>
        </relationship>
        <name>
          <family value="Me" />
          <given value="Minni" />
        </name>
        <telecom>
          <system value="phone" />
          <value value="1-989-654-7896" />
        </telecom>
      </RelatedPerson>
    </resource>
  </entry>  
  <!-- eCC Observation -->
  <entry>
    <fullUrl value="urn:uuid:2317c384-4d38-497b-b26d-f177d32d3fe2" />
    <resource>
      <Observation>
        <id value="2020"/>
        <identifier>
          <system value="https://CAP.org" />
          <value
            value="Adrenal.Bx.Res.129_3.002.011.RC1_sdcFDF3d1c4fe4-09c3-4a7e-877f-9ddb160da6db/ver1#2118.100004300"
           />
        </identifier>
        <status value="final" />
        <code>
          <coding>
            <system value="https://CAP.org" />
            <code value="2118.100004300" />
          </coding>
        </code>
        <subject>
          <reference value="urn:uuid:2c08e319-f0af-48b3-98df-267cbd376791" />
        </subject>
        <valueCodeableConcept>
          <coding>
            <system value="https://CAP.org" />
            <code value="2119.100004300" />
            <display value="Adrenal gland" />
          </coding>
        </valueCodeableConcept>

      </Observation>
    </resource>
  </entry>
  <!-- eCC Observation -->
  <entry>
    <fullUrl value="urn:uuid:900f6b79-8f19-4361-b3f9-0e13d549a7ba" />
    <resource>
      <Observation>
        <identifier>
          <system value="https://CAP.org" />
          <value value="Adrenal.Bx.Res.129_3.002.011.RC1_sdcFDF3d1c4fe4-09c3-4a7e-877f-9ddb160da6db/ver1#42554.100004300" />
        </identifier>
        <status value="final" />
        <code>
          <coding>
            <system value="https://CAP.org" />
            <code value="42554.100004300" />
            <display value="Procedure" />
          </coding>
        </code>
        <subject>
          <reference value="urn:uuid:2c08e319-f0af-48b3-98df-267cbd376791" />
        </subject>
        <valueCodeableConcept>
          <coding>
            <system value="https://CAP.org" />
            <code value="2122.100004300" />
            <display value="Adrenalectomy, total" />
          </coding>
        </valueCodeableConcept>
      </Observation>
    </resource>
  </entry>
  <!-- eCC Observation -->
  <entry>
    <fullUrl value="urn:uuid:1f995cae-654d-4db7-a9c0-7b1b23315467" />
    <resource>
      <Observation>
        <identifier>
          <system value="https://CAP.org" />
          <value
            value="Adrenal.Bx.Res.129_3.002.011.RC1_sdcFDF3d1c4fe4-09c3-4a7e-877f-9ddb160da6db/ver1#52756.100004300"
           />
        </identifier>
        <status value="final" />
        <code>
          <coding>
            <system value="https://CAP.org" />
            <code value="52756.100004300" />
            <display value="Specimen Laterality" />
          </coding>
        </code>
        <subject>
          <reference value="urn:uuid:2c08e319-f0af-48b3-98df-267cbd376791" />
        </subject>
        <valueCodeableConcept>
          <coding>
            <system value="https://CAP.org" />
            <code value="56812.100004300" />
            <display value="Bilateral" />
          </coding>
        </valueCodeableConcept>

      </Observation>
    </resource>
  </entry>
  <!-- eCC Observation -->
  <entry>
    <fullUrl value="urn:uuid:9c4e1de7-706d-4375-b5d9-7f4a415141d0" />
    <resource>
      <Observation>
        <identifier>
          <system value="https://CAP.org" />
          <value
            value="Adrenal.Bx.Res.129_3.002.011.RC1_sdcFDF3d1c4fe4-09c3-4a7e-877f-9ddb160da6db/ver1#59852.100004300"
           />
        </identifier>
        <status value="final" />
        <code>
          <coding>
            <system value="https://CAP.org" />
            <code value="59852.100004300" />
            <display value="Histologic Type (Notes C through E)" />
          </coding>
        </code>
        <subject>
          <reference value="urn:uuid:2c08e319-f0af-48b3-98df-267cbd376791" />
        </subject>
        <valueCodeableConcept>
          <coding>
            <system value="https://CAP.org" />
            <code value="2117.100004300" />
            <display value="Adrenal cortical carcinoma" />
          </coding>
        </valueCodeableConcept>
      </Observation>
    </resource>
  </entry>
  <!-- eCC Observation -->
  <entry>
    <fullUrl value="urn:uuid:3f83bbaf-db1b-4027-854e-c80cd05b083d" />
    <resource>
      <Observation>
        <identifier>
          <system value="https://CAP.org" />
          <value
            value="Adrenal.Bx.Res.129_3.002.011.RC1_sdcFDF3d1c4fe4-09c3-4a7e-877f-9ddb160da6db/ver1#49275.100004300"
           />
        </identifier>
        <status value="final" />
        <code>
          <coding>
            <system value="https://CAP.org" />
            <code value="49275.100004300" />
            <display value="Histologic Grade (Notes C through E)" />
          </coding>
        </code>
        <subject>
          <reference value="urn:uuid:2c08e319-f0af-48b3-98df-267cbd376791" />
        </subject>
        <valueCodeableConcept>
          <coding>
            <system value="https://CAP.org" />
            <code value="48634.100004300" />
            <display value="High grade (&gt; 20 mitoses / 50 high-power fields)" />
          </coding>
        </valueCodeableConcept>
      </Observation>
    </resource>
  </entry>
  <!-- eCC Observation -->
  <entry>
    <fullUrl value="urn:uuid:65a2cf43-0f88-4e56-84e5-18f06a840161" />
    <resource>
      <Observation>
        <identifier>
          <system value="https://CAP.org" />
          <value
            value="Adrenal.Bx.Res.129_3.002.011.RC1_sdcFDF3d1c4fe4-09c3-4a7e-877f-9ddb160da6db/ver1#2129.100004300"
           />
        </identifier>
        <status value="final" />
        <code>
          <coding>
            <system value="https://CAP.org" />
            <code value="2129.100004300" />
            <display value="Tumor Size (Note A)" />
          </coding>
        </code>
        <subject>
          <reference value="urn:uuid:2c08e319-f0af-48b3-98df-267cbd376791" />
        </subject>
        <valueCodeableConcept>
          <coding>
            <system value="https://CAP.org" />
            <code value="2131.100004300" />
            <display value="Greatest dimension in Centimeters (cm)" />
          </coding>
        </valueCodeableConcept>
      </Observation>
    </resource>
  </entry>
  <!-- eCC Observation -->
  <entry>
    <fullUrl value="urn:uuid:d79b44fe-589b-4615-80e1-0ae058e90879" />
    <resource>
      <Observation>
        <identifier>
          <system value="https://CAP.org" />
          <value
            value="Adrenal.Bx.Res.129_3.002.011.RC1_sdcFDF3d1c4fe4-09c3-4a7e-877f-9ddb160da6db/ver1#40496.100004300"
           />
        </identifier>
        <status value="final" />
        <code>
          <coding>
            <system value="https://CAP.org" />
            <code value="40496.100004300" />
            <display value="Tumor Weight (Note B)" />
          </coding>
        </code>
        <subject>
          <reference value="urn:uuid:2c08e319-f0af-48b3-98df-267cbd376791" />
        </subject>
        <valueCodeableConcept>
          <coding>
            <system value="https://CAP.org" />
            <code value="44761.100004300" />
            <display value="Specify weight (g)" />
          </coding>
        </valueCodeableConcept>
      </Observation>
    </resource>
  </entry>
  <!-- eCC Observation -->
  <entry>
    <fullUrl value="urn:uuid:49f02a44-e44f-4eac-8305-9eca2f9ac17b" />
    <resource>
      <Observation>
        <identifier>
          <system value="https://CAP.org" />
          <value
            value="Adrenal.Bx.Res.129_3.002.011.RC1_sdcFDF3d1c4fe4-09c3-4a7e-877f-9ddb160da6db/ver1.51265.100004300"
           />
        </identifier>
        <status value="final" />
        <code>
          <coding>
            <system value="https://CAP.org" />
            <code value="51265.100004300" />
            <display value="Tumor Extension" />
          </coding>
        </code>
        <subject>
          <reference value="urn:uuid:2c08e319-f0af-48b3-98df-267cbd376791" />
        </subject>
        <component>
          <code>
            <coding>
              <system value="https://CAP.org" />
              <code value="39537.100004300" />
              <display value="Tumor invades into or through the adrenal capsule" />
            </coding>
          </code>
        </component>
        <component>
          <code>
            <coding>
              <system value="https://CAP.org" />
              <code value="56271.100004300" />
              <display value="Tumor invades into other adjacent organ(s)" />
            </coding>
          </code>
        </component>
      </Observation>
    </resource>
  </entry>
  <!-- eCC Observation -->
  <entry>
    <fullUrl value="urn:uuid:5f7d6ef0-073b-457c-9177-ff5a503044f5" />
    <resource>
      <Observation>
        <identifier>
          <system value="https://CAP.org" />
          <value
            value="Adrenal.Bx.Res.129_3.002.011.RC1_sdcFDF3d1c4fe4-09c3-4a7e-877f-9ddb160da6db/ver1.53526.100004300"
           />
        </identifier>
        <status value="final" />
        <code>
          <coding>
            <system value="https://CAP.org" />
            <code value="53526.100004300" />
          </coding>
        </code>
        <subject>
          <reference value="urn:uuid:2c08e319-f0af-48b3-98df-267cbd376791" />
        </subject>
        <component>
          <code>
            <coding>
              <system value="https://CAP.org" />
              <code value="58229.100004300" />
              <display value="Diaphragm" />
            </coding>
          </code>
        </component>
      </Observation>
    </resource>
  </entry>
  <!-- eCC Observation -->
  <entry>
    <fullUrl value="urn:uuid:0319e121-c139-4d2b-b829-1a37760369af" />
    <resource>
      <Observation>
        <identifier>
          <system value="https://CAP.org" />
          <value
            value="Adrenal.Bx.Res.129_3.002.011.RC1_sdcFDF3d1c4fe4-09c3-4a7e-877f-9ddb160da6db/ver1.1867.100004300"
           />
        </identifier>
        <status value="final" />
        <code>
          <coding>
            <system value="https://CAP.org" />
            <code value="1867.100004300" />
            <display value="Regional Lymph Nodes" />
          </coding>
        </code>
        <subject>
          <reference value="urn:uuid:2c08e319-f0af-48b3-98df-267cbd376791" />
        </subject>
        <component>
          <code>
            <coding>
              <system value="https://CAP.org" />
              <code value="1868.100004300" />
              <display value="No lymph nodes submitted or found" />
            </coding>
          </code>
        </component>
      </Observation>
    </resource>
  </entry>
  <!-- eCC Observation -->
  <entry>
    <fullUrl value="urn:uuid:952c37d3-7952-4e54-99bb-d3d37e0b004b" />
    <resource>
      <Observation>
        <identifier>
          <system value="https://CAP.org" />
          <value
            value="Adrenal.Bx.Res.129_3.002.011.RC1_sdcFDF3d1c4fe4-09c3-4a7e-877f-9ddb160da6db/ver1.20880.100004300"
           />
        </identifier>
        <status value="final" />
        <code>
          <coding>
            <system value="https://CAP.org" />
            <code value="20880.100004300" />
            <display value="?TNM Descriptors" />
          </coding>
        </code>
        <subject>
          <reference value="urn:uuid:2c08e319-f0af-48b3-98df-267cbd376791" />
        </subject>
        <component>
          <code>
            <coding>
              <system value="https://CAP.org" />
              <code value="20890.100004300" />
              <display value="m (multiple primary tumors)" />
            </coding>
          </code>
        </component>
      </Observation>
    </resource>
  </entry>
  <!-- eCC Observation -->
  <entry>
    <fullUrl value="urn:uuid:16cbc45e-a4b8-4fef-b6fc-548ebd8f6491" />
    <resource>
      <Observation>
        <identifier>
          <system value="https://CAP.org" />
          <value
            value="Adrenal.Bx.Res.129_3.002.011.RC1_sdcFDF3d1c4fe4-09c3-4a7e-877f-9ddb160da6db/ver1#2137.100004300"
           />
        </identifier>
        <status value="final" />
        <code>
          <coding>
            <system value="https://CAP.org" />
            <code value="2137.100004300" />
            <display value="Primary Tumor (pT)" />
          </coding>
        </code>
        <subject>
          <reference value="urn:uuid:2c08e319-f0af-48b3-98df-267cbd376791" />
        </subject>
        <valueCodeableConcept>
          <coding>
            <system value="https://CAP.org" />
            <code value="2142.100004300" />
            <display value="pTX: Primary tumor cannot be assessed" />
          </coding>
        </valueCodeableConcept>
      </Observation>
    </resource>
  </entry>
  <!-- eCC Observation -->
  <entry>
    <fullUrl value="urn:uuid:2682a3fe-d0cb-46f1-bbee-7e6c32fb1f13" />
    <resource>
      <Observation>
        <identifier>
          <system value="https://CAP.org" />
          <value
            value="Adrenal.Bx.Res.129_3.002.011.RC1_sdcFDF3d1c4fe4-09c3-4a7e-877f-9ddb160da6db/ver1#2143.100004300"
           />
        </identifier>
        <status value="final" />
        <code>
          <coding>
            <system value="https://CAP.org" />
            <code value="2143.100004300" />
            <display value="Regional Lymph Nodes (pN) (Note H)" />
          </coding>
        </code>
        <subject>
          <reference value="urn:uuid:2c08e319-f0af-48b3-98df-267cbd376791" />
        </subject>
        <valueCodeableConcept>
          <coding>
            <system value="https://CAP.org" />
            <code value="2145.100004300" />
            <display value="pN0: No regional lymph node metastasis" />
          </coding>
        </valueCodeableConcept>
      </Observation>
    </resource>
  </entry>
  <!-- eCC Observation -->
  <entry>
    <fullUrl value="urn:uuid:0e0aec76-9e4a-48a8-9ca2-03f78419fc35" />
    <resource>
      <Observation>
        <identifier>
          <system value="https://CAP.org" />
          <value
            value="Adrenal.Bx.Res.129_3.002.011.RC1_sdcFDF3d1c4fe4-09c3-4a7e-877f-9ddb160da6db/ver1#2149.100004300"
           />
        </identifier>
        <status value="final" />
        <code>
          <coding>
            <system value="https://CAP.org" />
            <code value="2149.100004300" />
            <display value="?Distant Metastasis (pM) (Note I)" />
          </coding>
        </code>
        <subject>
          <reference value="urn:uuid:2c08e319-f0af-48b3-98df-267cbd376791" />
        </subject>
        <valueCodeableConcept>
          <coding>
            <system value="https://CAP.org" />
            <code value="20895.100004300" />
            <display
              value="?Not applicable - pM cannot be determined from the submitted specimen(s)" />
          </coding>
        </valueCodeableConcept>
      </Observation>
    </resource>
  </entry>
  </Bundle>
